Folder: tale_forms

File: imqcam.csv
Build_Date,Build_ID,DOE_Code,DOE_ID,Elongation_Percent,Hatch_mm,Layer_mm,Modulus_GPa,Orientation,Parameter_Label,Peak_Stress_MPa,Percent_Porosity_Contour,Porosity_percent_infill,Power_W,Specimen_Position,Speed_mm_per_s,Total_Porosity_Percent,VED_J_per_mm3,Yield_Strength_MPa
2022-01-01,A01_2022-01-01_JHUAPL_EOSM290_Ti64_Cylinder,1,A,7.329018,0.14,0.03,82.95913,Horizontal,A01,1047.749,0.0109683,0.312183,160,Baseplate,1200,0.245827,31.746,877.268
2022-01-01,A02_2022-01-01_JHUAPL_EOSM290_Ti64_Cylinder,1,A,6.279538,0.14,0.03,83.17367,Horizontal,A02,1098.062,0.0,0.0260009,180,Baseplate,1200,0.020268,35.7143,974.6752
2022-01-01,A03_2022-01-01_JHUAPL_EOSM290_Ti64_Cylinder,1,A,12.40391,0.14,0.03,100.2675,Horizontal,A03,1135.778,0.000423924,0.00364381,200,Baseplate,1200,0.00285932,39.6825,950.5035
2022-01-01,A04_2022-01-01_JHUAPL_EOSM290_Ti64_Cylinder,1,A,8.149077,0.14,0.03,93.70417,Horizontal,A04,1128.017,0.0,0.00225171,220,Baseplate,1200,0.00163969,43.6508,986.5347
2022-01-01,A05_2022-01-01_JHUAPL_EOSM290_Ti64_Cylinder,1,A,10.10267,0.14,0.03,99.6174,Horizontal,A05,1138.589,0.000613666,0.00135328,240,Baseplate,1200,0.00110909,47.619,974.6122
2022-01-01,A06_2022-01-01_JHUAPL_EOSM290_Ti64_Cylinder,1,A,3.284247,0.14,0.03,95.03085,Horizontal,A06,1120.158,0.243969,0.0961672,280,Baseplate,750,0.110825,88.8889,1028.574
2022-01-01,A07_2022-01-01_JHUAPL_EOSM290_Ti64_Cylinder,1,A,5.887272,0.14,0.03,88.85697,Horizontal,A07,1110.994,0.329676,0.202217,280,Baseplate,700,0.208519,95.2381,995.7499
2022-01-01,A08_2022-01-01_JHUAPL_EOSM290_Ti64_Cylinder,1,A,4.292009,0.14,0.03,97.03757,Horizontal,A08,1090.971,0.534752,0.459571,280,Baseplate,650,0.44793,102.564,992.3268
2022-01-01,A09_2022-01-01_JHUAPL_EOSM290_Ti64_Cylinder,1,A,8.419169,0.08,0.03,90.61287,Horizontal,A09,1110.704,0.0,0.00124381,290,Baseplate,1500,0.000928906,80.5556,973.0323
2022-01-01,A10_2022-01-01_JHUAPL_EOSM290_Ti64_Cylinder,1,A,8.464392,0.07,0.03,89.87002,Horizontal,A10,1093.651,0.0,0.00144264,300,Baseplate,2000,0.00112004,71.4286,984.8229
2022-01-01,A11_2022-01-01_JHUAPL_EOSM290_Ti64_Cylinder,1,A,8.202316,0.07,0.03,86.94441,Horizontal,A11,1089.124,0.0,0.00157186,320,Baseplate,2100,0.00105874,72.5624,938.3634
2022-01-01,A12_2022-01-01_JHUAPL_EOSM290_Ti64_Cylinder,1,A,7.4592,0.05,0.03,98.51573,Horizontal,A12,1102.222,0.00527227,0.0053194,300,Baseplate,3000,0.00477535,66.6667,974.7189
2022-01-01,A13_2022-01-01_JHUAPL_EOSM290_Ti64_Cylinder,1,A,8.74651,0.07,0.03,96.45377,Horizontal,A13,1086.842,0.0,0.00118866,280,Baseplate,2000,0.000973732,66.6667,933.7563
2022-01-01,A14_2022-01-01_JHUAPL_EOSM290_Ti64_Cylinder,1,A,8.053302,0.1,0.03,98.75287,Horizontal,A14,1136.785,0.00502045,0.00132875,300,Baseplate,1800,0.00181943,55.5556,991.1784
2022-01-01,A15_2022-01-01_JHUAPL_EOSM290_Ti64_Cylinder,1,A,6.036261,0.1,0.03,82.80967,Horizontal,A15,1085.216,0.492476,0.575064,200,Baseplate,700,0.53502,95.2381,976.9263
2022-01-01,A16_2022-01-01_JHUAPL_EOSM290_Ti64_Cylinder,1,A,7.473958,0.08,0.03,98.98172,Horizontal,A16,1118.402,0.0190706,0.0185373,160,Baseplate,800,0.0175658,83.3333,993.8903
2022-01-01,A17_2022-01-01_JHUAPL_EOSM290_Ti64_Cylinder,1,A,8.371793,0.1,0.03,93.07995,Horizontal,A17,1107.98,0.00172499,0.0018885,300,Baseplate,1250,0.00151695,80.0,970.399
2022-01-01,A18_2022-01-01_JHUAPL_EOSM290_Ti64_Cylinder,1,A,5.492799,0.15,0.03,96.04544,Horizontal,A18,1113.89,0.181708,0.113757,370,Baseplate,2000,0.125068,41.1111,971.1376
2022-01-01,A19_2022-01-01_JHUAPL_EOSM290_Ti64_Cylinder,1,A,7.478177,0.16,0.03,89.61057,Horizontal,A19,1114.767,0.11555,0.0234912,320,Baseplate,1500,0.0373749,44.4444,964.1324
2022-01-01,A20_2022-01-01_JHUAPL_EOSM290_Ti64_Cylinder,1,A,6.150909,0.15,0.03,90.66242,Horizontal,A20,1130.731,0.0232232,0.00274804,300,Baseplate,1350,0.00891745,49.3827,983.5157
2022-01-01,A21_2022-01-01_JHUAPL_EOSM290_Ti64_Cylinder,1,A,5.701865,0.15,0.03,84.51073,Horizontal,A21,1095.841,0.11741,0.165907,340,Baseplate,2100,0.152142,35.9788,941.9655
2022-01-01,A22_2022-01-01_JHUAPL_EOSM290_Ti64_Cylinder,1,A,5.812933,0.03,0.03,95.54525,Horizontal,A22,1120.34,0.0585931,0.124448,350,Baseplate,6000,0.101895,64.8148,978.0721
2022-01-01,A23_2022-01-01_JHUAPL_EOSM290_Ti64_Cylinder,1,A,8.2209,0.05,0.03,89.25477,Horizontal,A23,1121.362,0.000259167,0.022606,300,Baseplate,4000,0.0177705,50.0,961.8759
2022-01-01,A24_2022-01-01_JHUAPL_EOSM290_Ti64_Cylinder,1,A,7.457855,0.07,0.03,89.28768,Horizontal,A24,1108.506,0.0,0.00341325,330,Baseplate,3000,0.00276168,52.381,969.9091
2022-01-01,A25_2022-01-01_JHUAPL_EOSM290_Ti64_Cylinder,1,A,6.214844,0.12,0.03,88.42375,Horizontal,A25,1108.539,0.202039,0.605952,140,Baseplate,500,0.509538,77.7778,961.4067
2022-01-01,A26_2022-01-01_JHUAPL_EOSM290_Ti64_Cylinder,1,A,8.483478,0.14,0.03,93.44316,Horizontal,A26,1144.835,0.000293813,0.00526871,100,Baseplate,400,0.0040585,59.5238,1004.52
2022-01-01,A27_2022-01-01_JHUAPL_EOSM290_Ti64_Cylinder,1,A,7.775581,0.1,0.03,87.30763,Horizontal,A27,1122.948,0.0219188,0.0155604,220,Baseplate,900,0.0152577,81.4815,980.0062
2022-01-01,A28_2022-01-01_JHUAPL_EOSM290_Ti64_Cylinder,1,A,8.026777,0.06,0.03,88.19481,Horizontal,A28,1096.679,0.0024893,0.00190057,180,Baseplate,1100,0.00182769,90.9091,976.962
2022-01-01,A29_2022-01-01_JHUAPL_EOSM290_Ti64_Cylinder,1,A,9.449429,0.04,0.03,86.23091,Horizontal,A29,1051.178,0.000561913,0.00147463,200,Baseplate,1900,0.00126615,87.7193,924.7627
2022-01-01,A30_2022-01-01_JHUAPL_EOSM290_Ti64_Cylinder,1,A,7.79006,0.04,0.03,92.33394,Horizontal,A30,1076.553,0.000400994,0.00126507,180,Baseplate,2100,0.00105159,71.4286,959.8861
2022-01-01,A31_2022-01-01_JHUAPL_EOSM290_Ti64_Cylinder,1,A,5.910344,0.15,0.03,86.33178,Horizontal,A31,1116.498,0.0636185,0.0693158,370,Baseplate,1800,0.0733794,45.679,974.3593
2022-01-01,A32_2022-01-01_JHUAPL_EOSM290_Ti64_Cylinder,1,A,6.865469,0.18,0.03,90.05297,Horizontal,A32,1139.163,0.03728,0.00359806,370,Baseplate,1100,0.00835063,62.2896,1017.113
2022-01-01,A33_2022-01-01_JHUAPL_EOSM290_Ti64_Cylinder,1,A,6.121147,0.1,0.03,84.43506,Horizontal,A33,1109.124,0.0296576,0.00156688,370,Baseplate,1200,0.00555888,102.778,1016.943
2022-01-01,A34_2022-01-01_JHUAPL_EOSM290_Ti64_Cylinder,1,A,12.25088,0.11,0.03,86.17876,Horizontal,A34,1118.322,0.000528885,0.00222384,200,Baseplate,1400,0.0017293,43.29,975.8363
2022-01-01,A35_2022-01-01_JHUAPL_EOSM290_Ti64_Cylinder,1,A,1.948821,0.08,0.03,69.91927,Horizontal,A35,735.5991,1.00879,3.96642,200,Baseplate,3500,3.1799,23.8095,629.668
2022-01-01,A36_2022-01-01_JHUAPL_EOSM290_Ti64_Cylinder,1,A,11.20304,0.09,0.03,94.70798,Horizontal,A36,1112.07,0.0,0.00438167,275,Baseplate,2200,0.00306746,46.2963,943.2427
2022-01-01,A37_2022-01-01_JHUAPL_EOSM290_Ti64_Cylinder,1,A,2.563149,0.1,0.03,82.32044,Horizontal,A37,912.824,0.0987504,2.28582,250,Baseplate,3000,1.84527,27.7778,778.3625
2022-01-01,A38_2022-01-01_JHUAPL_EOSM290_Ti64_Cylinder,1,A,4.308186,0.04,0.03,89.97368,Horizontal,A38,1062.401,0.1027,0.696833,250,Baseplate,5000,0.574219,41.6667,900.9956
2022-01-01,A39_2022-01-01_JHUAPL_EOSM290_Ti64_Cylinder,1,A,7.28644,0.1,0.03,91.87596,Horizontal,A39,1113.924,0.000517327,0.00267122,300,Baseplate,1200,0.00183207,83.3333,994.2738
2022-01-01,A40_2022-01-01_JHUAPL_EOSM290_Ti64_Cylinder,1,A,5.845188,0.1,0.03,85.43935,Horizontal,A40,1031.538,0.0794765,0.585164,100,Baseplate,1000,0.485098,33.3333,856.235
2022-01-01,A41_2022-01-01_JHUAPL_EOSM290_Ti64_Cylinder,1,A,4.67887,0.05,0.03,107.187,Horizontal,A41,1073.29,0.0,0.00162309,200,Baseplate,1000,0.00821562,133.333,984.851
2022-01-01,A42_2022-01-01_JHUAPL_EOSM290_Ti64_Cylinder,1,A,7.312917,0.09,0.03,82.8952,Horizontal,A42,1113.931,0.00185538,0.0018025,330,Baseplate,1200,0.00161521,101.852,1005.588
2022-01-01,A43_2022-01-01_JHUAPL_EOSM290_Ti64_Cylinder,1,A,5.422559,0.12,0.03,92.03062,Horizontal,A43,1133.809,0.00607672,0.0105427,330,Baseplate,1900,0.00930143,48.2456,991.9364
2022-01-01,A44_2022-01-01_JHUAPL_EOSM290_Ti64_Cylinder,1,A,8.837733,0.1,0.03,91.09922,Horizontal,A44,1122.924,0.0147461,0.0320147,250,Baseplate,2200,0.0252123,37.8788,951.9387
2022-01-01,A45_2022-01-01_JHUAPL_EOSM290_Ti64_Cylinder,1,A,6.961423,0.04,0.03,88.86436,Horizontal,A45,1040.917,0.0,0.00188301,250,Baseplate,2200,0.00146713,94.697,946.2058
2022-01-01,A46_2022-01-01_JHUAPL_EOSM290_Ti64_Cylinder,1,A,6.513747,0.06,0.03,72.85587,Horizontal,A46,1081.437,0.0,0.00139565,300,Baseplate,2500,0.00110263,66.6667,972.878
2022-01-01,A47_2022-01-01_JHUAPL_EOSM290_Ti64_Cylinder,1,A,4.963275,0.11,0.03,90.74103,Horizontal,A47,1105.532,0.0382818,0.0140935,250,Baseplate,800,0.0159715,94.697,1000.853
2022-01-01,A48_2022-01-01_JHUAPL_EOSM290_Ti64_Cylinder,1,A,6.888027,0.1,0.03,75.96694,Horizontal,A48,1086.132,0.305668,0.184219,370,Baseplate,2500,0.199193,49.3333,968.8573
2022-01-02,A49_2022-01-02_JHUAPL_EOSM290_Ti64_Cylinder,1,A,10.15161,0.08,0.03,99.25736,Horizontal,A49,1104.252,0.0,0.00211239,250,Baseplate,1800,0.00155,57.8704,969.0188
2022-01-01,A50_2022-01-01_JHUAPL_EOSM290_Ti64_Cylinder,1,A,4.226879,0.19,0.03,88.15843,Horizontal,A50,1087.233,0.0527262,0.124993,340,Baseplate,600,0.109627,99.4152,975.981
2022-01-01,A51_2022-01-01_JHUAPL_EOSM290_Ti64_Cylinder,1,A,9.330571,0.14,0.03,96.24342,Horizontal,A51,1121.449,0.0,0.00162309,280,Baseplate,1200,0.0010639,55.5556,982.8213
2022-01-01,A52_2022-01-01_JHUAPL_EOSM290_Ti64_Cylinder,1,A,6.620796,0.14,0.03,97.50431,Horizontal,A52,1109.718,0.00182296,0.00815422,280,Baseplate,800,0.00604132,83.3333,985.6682
2022-01-01,A53_2022-01-01_JHUAPL_EOSM290_Ti64_Cylinder,1,A,9.720815,0.08,0.03,98.40816,Horizontal,A53,1067.393,0.0,0.00135863,280,Baseplate,1500,0.00102018,77.7778,947.9128
2022-01-06,B00_2022-01-06_JHUAPL_EOSM290_Ti64_Cylinder,2,B,-1.0,0.03,0.03,-1.0,Horizontal,B00,-1.0,-1.0,1.01696,100,Baseplate,3600,-1.0,30.8642,-1.0
2022-01-06,B01_2022-01-06_JHUAPL_EOSM290_Ti64_Cylinder,2,B,8.91318,0.03,0.03,101.63,Horizontal,B01,1171.22,-1.0,0.0718759,100,Baseplate,1290,-1.0,86.1326,1033.56
2022-01-06,B02_2022-01-06_JHUAPL_EOSM290_Ti64_Cylinder,2,B,5.28373,0.03,0.03,106.981,Horizontal,B02,1171.88,-1.0,0.450558,190,Baseplate,3900,-1.0,54.1311,1030.3
2022-01-06,B03_2022-01-06_JHUAPL_EOSM290_Ti64_Cylinder,2,B,-1.0,0.07,0.03,-1.0,Horizontal,B03,-1.0,-1.0,4.3939,110,Baseplate,2090,-1.0,25.0627,-1.0
2022-01-06,B04_2022-01-06_JHUAPL_EOSM290_Ti64_Cylinder,2,B,5.91585,0.18,0.03,101.909,Horizontal,B04,1191.64,-1.0,0.643567,210,Baseplate,590,-1.0,65.9134,1081.44
2022-01-06,B05_2022-01-06_JHUAPL_EOSM290_Ti64_Cylinder,2,B,-1.0,0.18,0.03,-1.0,Horizontal,B05,-1.0,-1.0,3.27373,245,Baseplate,1810,-1.0,25.0665,-1.0
2022-01-06,B07_2022-01-06_JHUAPL_EOSM290_Ti64_Cylinder,2,B,-1.0,0.14,0.03,-1.0,Horizontal,B07,-1.0,-1.0,3.3273,270,Baseplate,2570,-1.0,25.0139,-1.0
2022-01-06,B08_2022-01-06_JHUAPL_EOSM290_Ti64_Cylinder,2,B,-1.0,0.09,0.03,-1.0,Horizontal,B08,-1.0,-1.0,3.81587,175,Baseplate,2360,-1.0,27.4639,-1.0
2022-01-06,B09_2022-01-06_JHUAPL_EOSM290_Ti64_Cylinder,2,B,6.82431,0.08,0.03,97.3931,Horizontal,B09,1117.11,-1.0,0.466402,365,Baseplate,3990,-1.0,38.1161,962.066
2022-01-06,B10_2022-01-06_JHUAPL_EOSM290_Ti64_Cylinder,2,B,-1.0,0.03,0.03,-1.0,Horizontal,B10,-1.0,-1.0,1.39807,110,Baseplate,2440,-1.0,50.0911,-1.0
2022-01-06,B11_2022-01-06_JHUAPL_EOSM290_Ti64_Cylinder,2,B,-1.0,0.06,0.03,-1.0,Horizontal,B11,-1.0,-1.0,8.81466,140,Baseplate,3110,-1.0,25.0089,-1.0
2022-01-06,B12_2022-01-06_JHUAPL_EOSM290_Ti64_Cylinder,2,B,4.96062,0.06,0.03,105.169,Horizontal,B12,1167.5,-1.0,0.0121441,100,Baseplate,470,-1.0,118.203,1070.96
2022-01-06,B13_2022-01-06_JHUAPL_EOSM290_Ti64_Cylinder,2,B,3.6272,0.14,0.03,91.9048,Horizontal,B13,1151.26,-1.0,0.380877,360,Baseplate,720,-1.0,119.048,1100.38
2022-01-06,B14_2022-01-06_JHUAPL_EOSM290_Ti64_Cylinder,2,B,5.00294,0.03,0.03,100.048,Horizontal,B14,1107.52,-1.0,0.00653539,245,Baseplate,3280,-1.0,82.9946,1010.38
2022-01-06,B15_2022-01-06_JHUAPL_EOSM290_Ti64_Cylinder,2,B,4.95572,0.18,0.03,103.982,Horizontal,B15,1208.54,-1.0,0.0154847,275,Baseplate,830,-1.0,61.3565,1107.88
2022-01-06,B17_2022-01-06_JHUAPL_EOSM290_Ti64_Cylinder,2,B,-1.0,0.13,0.03,-1.0,Horizontal,B17,-1.0,-1.0,3.61963,215,Baseplate,2190,-1.0,25.1727,-1.0
2022-01-06,B18_2022-01-06_JHUAPL_EOSM290_Ti64_Cylinder,2,B,5.99829,0.07,0.03,104.107,Horizontal,B18,1137.88,-1.0,0.698673,260,Baseplate,3500,-1.0,35.3741,991.11
2022-01-06,B19_2022-01-06_JHUAPL_EOSM290_Ti64_Cylinder,2,B,8.39653,0.07,0.03,105.104,Horizontal,B19,1184.63,-1.0,0.0127737,225,Baseplate,2650,-1.0,40.4313,1037.29
2022-01-06,B20_2022-01-06_JHUAPL_EOSM290_Ti64_Cylinder,2,B,-1.0,0.18,0.03,-1.0,Horizontal,B20,-1.0,-1.0,4.85098,310,Baseplate,2290,-1.0,25.0687,-1.0
2022-01-06,B21_2022-01-06_JHUAPL_EOSM290_Ti64_Cylinder,2,B,4.94068,0.03,0.03,105.455,Horizontal,B21,1169.97,-1.0,0.0079112,170,Baseplate,3000,-1.0,62.963,1052.14
2022-01-06,B22_2022-01-06_JHUAPL_EOSM290_Ti64_Cylinder,2,B,-1.0,0.18,0.03,-1.0,Horizontal,B22,-1.0,-1.0,5.85374,165,Baseplate,1220,-1.0,25.0455,-1.0
2022-01-06,B23_2022-01-06_JHUAPL_EOSM290_Ti64_Cylinder,2,B,6.20625,0.11,0.03,98.7941,Horizontal,B23,1134.33,-1.0,0.247512,310,Baseplate,2730,-1.0,34.41,991.419
2022-01-06,B24_2022-01-06_JHUAPL_EOSM290_Ti64_Cylinder,2,B,-1.0,0.1,0.03,-1.0,Horizontal,B24,-1.0,-1.0,1.09163,145,Baseplate,1600,-1.0,30.2083,-1.0
2022-01-06,B25_2022-01-06_JHUAPL_EOSM290_Ti64_Cylinder,2,B,5.68456,0.06,0.03,108.6,Horizontal,B25,1198.76,-1.0,0.00278593,240,Baseplate,1120,-1.0,119.048,1101.59
2022-01-06,B26_2022-01-06_JHUAPL_EOSM290_Ti64_Cylinder,2,B,7.85263,0.06,0.03,107.837,Horizontal,B26,1170.67,-1.0,0.000763298,125,Baseplate,1280,-1.0,54.2535,1020.34
2022-01-06,B27_2022-01-06_JHUAPL_EOSM290_Ti64_Cylinder,2,B,6.55506,0.08,0.03,100.071,Horizontal,B27,1123.6,-1.0,0.881669,310,Baseplate,3770,-1.0,34.2617,965.6
2022-01-06,B28_2022-01-06_JHUAPL_EOSM290_Ti64_Cylinder,2,B,-1.0,0.07,0.03,-1.0,Horizontal,B28,-1.0,-1.0,0.0,365,Baseplate,1590,-1.0,109.314,-1.0
2022-01-06,B29_2022-01-06_JHUAPL_EOSM290_Ti64_Cylinder,2,B,-1.0,0.18,0.03,-1.0,Horizontal,B29,-1.0,-1.0,1.31863,365,Baseplate,2350,-1.0,28.7628,-1.0
2022-01-06,B30_2022-01-06_JHUAPL_EOSM290_Ti64_Cylinder,2,B,4.51982,0.05,0.03,100.471,Horizontal,B30,1159.32,-1.0,0.827539,230,Baseplate,3960,-1.0,38.7205,1019.09
2022-01-06,B31_2022-01-06_JHUAPL_EOSM290_Ti64_Cylinder,2,B,-1.0,0.13,0.03,-1.0,Horizontal,B31,-1.0,-1.0,5.54961,190,Baseplate,410,-1.0,118.824,-1.0
2022-01-06,B32_2022-01-06_JHUAPL_EOSM290_Ti64_Cylinder,2,B,8.03956,0.07,0.03,101.727,Horizontal,B32,1175.95,-1.0,0.000524522,200,Baseplate,1830,-1.0,52.0427,1048.62
2022-01-06,B33_2022-01-06_JHUAPL_EOSM290_Ti64_Cylinder,2,B,3.52611,0.16,0.03,96.4382,Horizontal,B33,1142.06,-1.0,0.515615,320,Baseplate,640,-1.0,104.167,1066.74
2022-01-06,B34_2022-01-06_JHUAPL_EOSM290_Ti64_Cylinder,2,B,8.42499,0.05,0.03,105.571,Horizontal,B34,1160.12,-1.0,0.185909,205,Baseplate,3240,-1.0,42.1811,1009.68
2022-01-06,B35_2022-01-06_JHUAPL_EOSM290_Ti64_Cylinder,2,B,4.78229,0.03,0.03,110.893,Horizontal,B35,1100.84,-1.0,0.00340603,155,Baseplate,1440,-1.0,119.599,1026.8
2022-01-06,B36_2022-01-06_JHUAPL_EOSM290_Ti64_Cylinder,2,B,-1.0,0.15,0.03,-1.0,Horizontal,B36,-1.0,-1.0,3.25576,230,Baseplate,460,-1.0,111.111,-1.0
2022-01-06,B37_2022-01-06_JHUAPL_EOSM290_Ti64_Cylinder,2,B,3.56554,0.12,0.03,110.947,Horizontal,B37,1151.08,-1.0,0.177918,325,Baseplate,800,-1.0,112.847,1071.65
2022-01-06,B38_2022-01-06_JHUAPL_EOSM290_Ti64_Cylinder,2,B,11.5209,0.12,0.03,106.138,Horizontal,B38,1210.38,-1.0,0.0140182,260,Baseplate,1660,-1.0,43.5074,1075.74
2022-01-06,B39_2022-01-06_JHUAPL_EOSM290_Ti64_Cylinder,2,B,-1.0,0.16,0.03,-1.0,Horizontal,B39,-1.0,-1.0,4.3901,210,Baseplate,1740,-1.0,25.1437,-1.0
2022-01-06,B40_2022-01-06_JHUAPL_EOSM290_Ti64_Cylinder,2,B,-1.0,0.07,0.03,-1.0,Horizontal,B40,-1.0,-1.0,0.0263668,365,Baseplate,2440,-1.0,71.2334,-1.0
2022-01-06,B41_2022-01-06_JHUAPL_EOSM290_Ti64_Cylinder,2,B,8.56293,0.16,0.03,106.72,Horizontal,B41,1229.38,-1.0,0.0412962,175,Baseplate,650,-1.0,56.0897,1094.86
2022-01-06,B42_2022-01-06_JHUAPL_EOSM290_Ti64_Cylinder,2,B,-1.0,0.03,0.03,-1.0,Horizontal,B42,-1.0,-1.0,0.00659456,315,Baseplate,3500,-1.0,100.0,-1.0
2022-01-06,B43_2022-01-06_JHUAPL_EOSM290_Ti64_Cylinder,2,B,-1.0,0.16,0.03,-1.0,Horizontal,B43,-1.0,-1.0,1.28812,280,Baseplate,2010,-1.0,29.0216,-1.0
2022-01-06,B44_2022-01-06_JHUAPL_EOSM290_Ti64_Cylinder,2,B,4.64475,0.05,0.03,108.249,Horizontal,B44,1196.83,-1.0,0.0134249,350,Baseplate,3990,-1.0,58.4795,1061.35
2022-01-06,B45_2022-01-06_JHUAPL_EOSM290_Ti64_Cylinder,2,B,9.28997,0.03,0.03,110.512,Horizontal,B45,1163.78,-1.0,0.00689207,265,Baseplate,3990,-1.0,73.7956,1042.35
2022-01-06,B46_2022-01-06_JHUAPL_EOSM290_Ti64_Cylinder,2,B,-1.0,0.03,0.03,-1.0,Horizontal,B46,-1.0,-1.0,0.0101588,215,Baseplate,2670,-1.0,89.4715,-1.0
2022-01-06,B47_2022-01-06_JHUAPL_EOSM290_Ti64_Cylinder,2,B,-1.0,0.04,0.03,-1.0,Horizontal,B47,-1.0,-1.0,4.29295,145,Baseplate,3680,-1.0,32.8351,-1.0
2022-01-06,B48_2022-01-06_JHUAPL_EOSM290_Ti64_Cylinder,2,B,10.8659,0.06,0.03,104.705,Horizontal,B48,1152.29,-1.0,0.561042,180,Baseplate,2630,-1.0,38.0228,983.521
2022-01-06,B49_2022-01-06_JHUAPL_EOSM290_Ti64_Cylinder,2,B,3.36651,0.09,0.03,102.265,Horizontal,B49,1147.9,-1.0,0.0621095,360,Baseplate,3180,-1.0,41.9287,1015.09
2022-01-06,B50_2022-01-06_JHUAPL_EOSM290_Ti64_Cylinder,2,B,7.6734,0.08,0.03,109.504,Horizontal,B50,1168.93,-1.0,0.0749761,285,Baseplate,2930,-1.0,40.529,1021.19
[...]
2022-01-06,B95_2022-01-06_JHUAPL_EOSM290_Ti64_Cylinder,2,B,7.81602,0.04,0.03,106.641,Horizontal,B95,1127.58,-1.0,0.00103927,280,Baseplate,3460,-1.0,67.4374,1011.49
2022-01-06,B96_2022-01-06_JHUAPL_EOSM290_Ti64_Cylinder,2,B,9.13256,0.16,0.03,102.535,Horizontal,B96,1143.69,-1.0,0.145997,265,Baseplate,1440,-1.0,38.3391,992.679
2022-01-06,B97_2022-01-06_JHUAPL_EOSM290_Ti64_Cylinder,2,B,6.36517,0.13,0.03,103.004,Horizontal,B97,1148.02,-1.0,0.0719064,360,Baseplate,2210,-1.0,41.7682,999.247
2022-01-06,B98_2022-01-06_JHUAPL_EOSM290_Ti64_Cylinder,2,B,-1.0,0.16,0.03,-1.0,Horizontal,B98,-1.0,-1.0,6.12095,175,Baseplate,1450,-1.0,25.1437,-1.0
2022-01-06,B99_2022-01-06_JHUAPL_EOSM290_Ti64_Cylinder,2,B,9.85126,0.05,0.03,111.209,Horizontal,B99,1120.94,-1.0,0.0,155,Baseplate,1700,-1.0,60.7843,986.168
2022-01-11,C01_2022-01-11_JHUAPL_EOSM290_Ti64_Cylinder,3,C,7.62805,0.1,0.03,101.231,Horizontal,C01,1206.25,-1.0,0.103849,153,Baseplate,719,-1.0,70.9318,1069.86
2022-01-11,C02_2022-01-11_JHUAPL_EOSM290_Ti64_Cylinder,3,C,11.0178,0.03,0.03,93.4538,Horizontal,C02,1189.68,-1.0,0.00928962,125,Baseplate,1952,-1.0,71.1521,1037.21
2022-01-11,C03_2022-01-11_JHUAPL_EOSM290_Ti64_Cylinder,3,C,8.9015,0.09,0.03,100.599,Horizontal,C03,1155.71,-1.0,0.0467177,122,Baseplate,609,-1.0,74.1957,1013.73
2022-01-11,C04_2022-01-11_JHUAPL_EOSM290_Ti64_Cylinder,3,C,3.62966,0.03,0.03,91.0674,Horizontal,C04,1170.31,-1.0,0.0266018,98,Baseplate,1458,-1.0,74.6837,1030.21
2022-01-11,C05_2022-01-11_JHUAPL_EOSM290_Ti64_Cylinder,3,C,4.18317,0.18,0.03,98.8614,Horizontal,C05,1192.47,-1.0,0.0766856,325,Baseplate,781,-1.0,77.0617,1092.04
2022-01-11,C06_2022-01-11_JHUAPL_EOSM290_Ti64_Cylinder,3,C,8.28823,0.03,0.03,97.8227,Horizontal,C06,1143.41,-1.0,0.0255645,266,Baseplate,3781,-1.0,78.1686,1008.28
2022-01-11,C07_2022-01-11_JHUAPL_EOSM290_Ti64_Cylinder,3,C,7.00554,0.03,0.03,89.7503,Horizontal,C07,1152.68,-1.0,0.00141562,190,Baseplate,2648,-1.0,79.7247,1036.82
2022-01-11,C08_2022-01-11_JHUAPL_EOSM290_Ti64_Cylinder,3,C,-1.0,0.16,0.03,-1.0,Horizontal,C08,-1.0,-1.0,6.66948,173,Baseplate,415,-1.0,86.8474,-1.0
2022-01-11,C09_2022-01-11_JHUAPL_EOSM290_Ti64_Cylinder,3,C,10.1279,0.04,0.03,96.6714,Horizontal,C09,1125.96,-1.0,0.000415625,254,Baseplate,2430,-1.0,87.1056,999.188
2022-01-11,C10_2022-01-11_JHUAPL_EOSM290_Ti64_Cylinder,3,C,7.24055,0.07,0.03,95.4884,Horizontal,C10,1159.84,-1.0,0.254809,133,Baseplate,666,-1.0,95.0951,1048.82
2022-01-11,C11_2022-01-11_JHUAPL_EOSM290_Ti64_Cylinder,3,C,-1.0,0.13,0.03,-1.0,Horizontal,C11,-1.0,-1.0,1.36061,239,Baseplate,643,-1.0,95.3065,-1.0
2022-01-11,C12_2022-01-11_JHUAPL_EOSM290_Ti64_Cylinder,3,C,4.57413,0.16,0.03,99.7935,Horizontal,C12,1151.61,-1.0,0.330227,346,Baseplate,738,-1.0,97.6739,1053.95
2022-01-11,C13_2022-01-11_JHUAPL_EOSM290_Ti64_Cylinder,3,C,2.60145,0.19,0.03,95.3914,Horizontal,C13,1162.37,-1.0,0.757246,351,Baseplate,627,-1.0,98.212,1070.15
2022-01-11,C14_2022-01-11_JHUAPL_EOSM290_Ti64_Cylinder,3,C,-1.0,0.07,0.03,-1.0,Horizontal,C14,-1.0,-1.0,1.03298,126,Baseplate,559,-1.0,107.335,-1.0
2022-01-11,C15_2022-01-11_JHUAPL_EOSM290_Ti64_Cylinder,3,C,5.78486,0.07,0.03,99.9305,Horizontal,C15,1159.23,-1.0,0.202604,192,Baseplate,845,-1.0,108.199,1060.82
2022-01-11,C16_2022-01-11_JHUAPL_EOSM290_Ti64_Cylinder,3,C,3.85337,0.12,0.03,91.2884,Horizontal,C16,1150.78,-1.0,0.515962,287,Baseplate,732,-1.0,108.91,1070.18
2022-01-11,C17_2022-01-11_JHUAPL_EOSM290_Ti64_Cylinder,3,C,-1.0,0.18,0.03,-1.0,Horizontal,C17,-1.0,-1.0,1.2805,365,Baseplate,614,-1.0,110.086,-1.0
2022-01-11,C18_2022-01-11_JHUAPL_EOSM290_Ti64_Cylinder,3,C,4.35061,0.13,0.03,97.38,Horizontal,C18,1142.98,-1.0,0.22006,357,Baseplate,826,-1.0,110.821,1061.38
2022-01-11,C19_2022-01-11_JHUAPL_EOSM290_Ti64_Cylinder,3,C,-1.0,0.03,0.03,-1.0,Horizontal,C19,-1.0,-1.0,-1.0,338,Baseplate,3260,-1.0,115.201,-1.0
2022-01-11,C20_2022-01-11_JHUAPL_EOSM290_Ti64_Cylinder,3,C,3.91033,0.12,0.03,93.1005,Horizontal,C20,1135.96,-1.0,0.260537,357,Baseplate,846,-1.0,117.218,1056.93
2022-01-11,C21_2022-01-11_JHUAPL_EOSM290_Ti64_Cylinder,3,C,-1.0,0.04,0.03,-1.0,Horizontal,C21,-1.0,-1.0,-1.0,358,Baseplate,2347,-1.0,127.113,-1.0
2022-01-11,C22_2022-01-11_JHUAPL_EOSM290_Ti64_Cylinder,3,C,-1.0,0.08,0.03,-1.0,Horizontal,C22,-1.0,-1.0,1.2746,258,Baseplate,776,-1.0,138.531,-1.0
2022-01-11,C23_2022-01-11_JHUAPL_EOSM290_Ti64_Cylinder,3,C,-1.0,0.03,0.03,-1.0,Horizontal,C23,-1.0,-1.0,-1.0,368,Baseplate,2895,-1.0,141.24,-1.0
2022-01-11,C24_2022-01-11_JHUAPL_EOSM290_Ti64_Cylinder,3,C,-1.0,0.08,0.03,-1.0,Horizontal,C24,-1.0,-1.0,1.24449,282,Baseplate,823,-1.0,142.77,-1.0
2022-01-11,C25_2022-01-11_JHUAPL_EOSM290_Ti64_Cylinder,3,C,4.36863,0.04,0.03,100.476,Horizontal,C25,1139.85,-1.0,0.0589624,117,Baseplate,666,-1.0,146.396,1034.61
2022-01-11,C26_2022-01-11_JHUAPL_EOSM290_Ti64_Cylinder,3,C,6.88674,0.12,0.03,93.1843,Horizontal,C26,1075.12,-1.0,0.825378,280,Baseplate,2475,-1.0,31.4254,895.881
2022-01-11,C27_2022-01-11_JHUAPL_EOSM290_Ti64_Cylinder,3,C,13.0834,0.05,0.03,87.9442,Horizontal,C27,1131.63,-1.0,0.354075,107,Baseplate,1650,-1.0,43.2323,968.56
2022-01-11,C28_2022-01-11_JHUAPL_EOSM290_Ti64_Cylinder,3,C,-1.0,0.18,0.03,-1.0,Horizontal,C28,-1.0,-1.0,9.5344,101,Baseplate,695,-1.0,26.9118,-1.0
2022-01-11,C29_2022-01-11_JHUAPL_EOSM290_Ti64_Cylinder,3,C,-1.0,0.17,0.03,-1.0,Horizontal,C29,-1.0,-1.0,7.14683,118,Baseplate,874,-1.0,26.4728,-1.0
2022-01-11,C30_2022-01-11_JHUAPL_EOSM290_Ti64_Cylinder,3,C,12.459,0.09,0.03,91.7398,Horizontal,C30,1163.81,-1.0,0.0305953,239,Baseplate,2344,-1.0,37.7639,987.004
2022-01-11,C31_2022-01-11_JHUAPL_EOSM290_Ti64_Cylinder,3,C,11.4736,0.06,0.03,85.6045,Horizontal,C31,1144.41,-1.0,0.997497,204,Baseplate,3096,-1.0,36.6064,979.598
2022-01-11,C32_2022-01-11_JHUAPL_EOSM290_Ti64_Cylinder,3,C,10.0961,0.11,0.03,97.9519,Horizontal,C32,1146.79,-1.0,0.120476,354,Baseplate,2596,-1.0,41.3223,979.232
2022-01-11,C33_2022-01-11_JHUAPL_EOSM290_Ti64_Cylinder,3,C,4.9918,0.17,0.03,94.4967,Horizontal,C33,1166.28,-1.0,0.22089,323,Baseplate,1577,-1.0,40.1606,1016.79
2022-01-11,C34_2022-01-11_JHUAPL_EOSM290_Ti64_Cylinder,3,C,8.49621,0.05,0.03,100.314,Horizontal,C34,1127.24,-1.0,0.0,234,Baseplate,2428,-1.0,64.2504,986.145
2022-01-11,C35_2022-01-11_JHUAPL_EOSM290_Ti64_Cylinder,3,C,7.01415,0.1,0.03,89.3223,Horizontal,C35,1082.6,-1.0,0.983041,346,Baseplate,3493,-1.0,33.0184,918.109
2022-01-11,C36_2022-01-11_JHUAPL_EOSM290_Ti64_Cylinder,3,C,-1.0,0.06,0.03,-1.0,Horizontal,C36,-1.0,-1.0,4.33587,164,Baseplate,2870,-1.0,31.746,-1.0
2022-01-11,C37_2022-01-11_JHUAPL_EOSM290_Ti64_Cylinder,3,C,8.46349,0.1,0.03,93.7459,Horizontal,C37,1111,-1.0,0.960557,310,Baseplate,3118,-1.0,33.1409,933.528
2022-01-11,C38_2022-01-11_JHUAPL_EOSM290_Ti64_Cylinder,3,C,9.92434,0.17,0.03,94.0751,Horizontal,C38,1129.92,-1.0,0.644374,298,Baseplate,1719,-1.0,33.9915,968.495
2022-01-11,C39_2022-01-11_JHUAPL_EOSM290_Ti64_Cylinder,3,C,9.71216,0.06,0.03,98.3228,Horizontal,C39,1150.67,-1.0,0.139107,196,Baseplate,2763,-1.0,39.4097,975.814
2022-01-11,C40_2022-01-11_JHUAPL_EOSM290_Ti64_Cylinder,3,C,11.8517,0.07,0.03,93.999,Horizontal,C40,1167.09,-1.0,0.124328,268,Baseplate,3245,-1.0,39.3279,1007.12
2022-01-11,C41_2022-01-11_JHUAPL_EOSM290_Ti64_Cylinder,3,C,13.6943,0.07,0.03,98.0681,Horizontal,C41,1149.25,-1.0,0.32252,198,Baseplate,2541,-1.0,37.1058,975.92
2022-01-11,C42_2022-01-11_JHUAPL_EOSM290_Ti64_Cylinder,3,C,13.1576,0.11,0.03,97.8465,Horizontal,C42,1142.9,-1.0,0.136837,134,Baseplate,1178,-1.0,34.4703,959.521
2022-01-11,C43_2022-01-11_JHUAPL_EOSM290_Ti64_Cylinder,3,C,11.9181,0.09,0.03,97.0821,Horizontal,C43,1177.51,-1.0,0.187772,211,Baseplate,2161,-1.0,36.163,1007.81
2022-01-11,C44_2022-01-11_JHUAPL_EOSM290_Ti64_Cylinder,3,C,-1.0,0.07,0.03,-1.0,Horizontal,C44,-1.0,-1.0,1.01441,162,Baseplate,2227,-1.0,34.6398,-1.0
2022-01-11,C45_2022-01-11_JHUAPL_EOSM290_Ti64_Cylinder,3,C,8.53745,0.13,0.03,93.8374,Horizontal,C45,1168.77,-1.0,0.0175571,252,Baseplate,1594,-1.0,40.5366,1016.43
2022-01-11,C46_2022-01-11_JHUAPL_EOSM290_Ti64_Cylinder,3,C,5.81401,0.11,0.03,91.6595,Horizontal,C46,1096.07,-1.0,0.883416,277,Baseplate,2641,-1.0,31.7832,928.953
2022-01-11,C47_2022-01-11_JHUAPL_EOSM290_Ti64_Cylinder,3,C,12.635,0.09,0.03,93.3346,Horizontal,C47,1127.37,-1.0,0.167868,62,Baseplate,444,-1.0,51.7184,946.477
2022-01-11,C48_2022-01-11_JHUAPL_EOSM290_Ti64_Cylinder,3,C,-1.0,0.05,0.03,-1.0,Horizontal,C48,-1.0,-1.0,1.29232,106,Baseplate,1736,-1.0,40.7066,-1.0
2022-01-11,C49_2022-01-11_JHUAPL_EOSM290_Ti64_Cylinder,3,C,-1.0,0.11,0.03,-1.0,Horizontal,C49,-1.0,-1.0,2.42288,60,Baseplate,539,-1.0,33.7325,-1.0
2022-01-11,C50_2022-01-11_JHUAPL_EOSM290_Ti64_Cylinder,3,C,9.68003,0.18,0.03,101.813,Horizontal,C50,1194.57,-1.0,0.0462831,141,Baseplate,486,-1.0,53.7266,1044.8